# Positioner: Beamline Energy 
# Detector: MCA 
# Detector count time: 0.5000 sec 
# 
# Columns: (Beamline Energy) 	 (MCA) 
          -0.08               0 
         -0.075               0 
          -0.07               0 
         -0.065               0 
          -0.06               0 
         -0.055               0 
          -0.05               0 
         -0.045               0 
          -0.04               0 
         -0.035               0 
          -0.03               0 
         -0.025               0 
          -0.02               0 
         -0.015               0 
          -0.01               0 
         -0.005               1 
  5.5511151e-17               0 
          0.005               0 
           0.01               0 
          0.015               0 
           0.02               0 
          0.025               0 
           0.03               0 
          0.035               0 
           0.04               0 
          0.045               0 
           0.05               0 
          0.055               0 
           0.06               0 
          0.065               0 
           0.07               0 
          0.075               0 
           0.08               0 
          0.085               0 
           0.09               0 
          0.095               0 
            0.1               0 
          0.105               0 
           0.11               0 
          0.115               0 
           0.12               0 
          0.125               0 
           0.13               0 
          0.135               0 
           0.14               0 
          0.145               0 
           0.15               0 
          0.155               0 
           0.16               0 
          0.165               0 
           0.17               0 
          0.175               0 
           0.18               0 
          0.185               1 
           0.19               0 
          0.195               0 
            0.2               0 
          0.205               0 
           0.21               0 
          0.215               0 
           0.22               0 
          0.225               1 
           0.23               1 
          0.235               0 
           0.24               0 
          0.245               0 
           0.25               0 
          0.255               1 
           0.26               1 
          0.265               0 
           0.27               1 
          0.275               0 
           0.28               1 
          0.285               2 
           0.29               3 
          0.295               2 
            0.3               4 
          0.305               1 
           0.31               2 
          0.315               4 
           0.32               5 
          0.325               3 
           0.33               8 
          0.335               7 
           0.34               6 
          0.345              10 
           0.35              10 
          0.355              10 
           0.36               6 
          0.365               9 
           0.37              11 
          0.375              11 
           0.38              12 
          0.385               9 
           0.39              14 
          0.395               6 
            0.4               9 
          0.405              12 
           0.41              18 
          0.415              14 
           0.42              10 
          0.425               6 
           0.43               6 
          0.435              12 
           0.44               6 
          0.445              12 
           0.45              12 
          0.455              11 
           0.46              10 
          0.465              10 
           0.47              10 
          0.475               4 
           0.48               8 
          0.485               5 
           0.49               2 
          0.495               0 
            0.5               6 
          0.505               3 
           0.51               4 
          0.515               3 
           0.52               1 
          0.525               1 
           0.53               2 
          0.535               1 
           0.54               2 
          0.545               0 
           0.55               0 
          0.555               1 
           0.56               0 
          0.565               2 
           0.57               0 
          0.575               0 
           0.58               0 
          0.585               2 
           0.59               0 
          0.595               0 
            0.6               0 
          0.605               0 
           0.61               1 
          0.615               1 
           0.62               0 
          0.625               0 
           0.63               0 
          0.635               0 
           0.64               0 
          0.645               0 
           0.65               0 
          0.655               0 
           0.66               0 
          0.665               0 
           0.67               0 
          0.675               0 
           0.68               0 
          0.685               0 
           0.69               0 
          0.695               0 
            0.7               0 
          0.705               0 
           0.71               0 
          0.715               0 
           0.72               0 
          0.725               0 
           0.73               0 
          0.735               0 
           0.74               0 
          0.745               0 
           0.75               1 
          0.755               0 
           0.76               5 
          0.765               7 
           0.77               6 
          0.775               5 
           0.78              10 
          0.785               4 
           0.79               9 
          0.795               9 
            0.8               9 
          0.805              12 
           0.81               7 
          0.815               5 
           0.82               3 
          0.825               5 
           0.83               2 
          0.835               6 
           0.84               6 
          0.845               5 
           0.85               9 
          0.855               7 
           0.86              12 
          0.865               3 
           0.87               8 
          0.875               4 
           0.88              12 
          0.885               7 
           0.89               4 
          0.895               9 
            0.9               5 
          0.905               5 
           0.91               8 
          0.915               8 
           0.92               4 
          0.925               8 
           0.93               7 
          0.935               4 
           0.94               2 
          0.945               6 
           0.95               3 
          0.955               6 
           0.96               5 
          0.965               7 
           0.97               7 
          0.975               3 
           0.98               5 
          0.985               7 
           0.99               6 
          0.995               3 
              1               6 
          1.005               6 
           1.01               6 
          1.015               1 
           1.02               6 
          1.025               7 
           1.03               5 
          1.035               0 
           1.04               4 
          1.045              10 
           1.05               4 
          1.055               4 
           1.06               3 
          1.065               5 
           1.07               6 
          1.075               3 
           1.08               6 
          1.085               7 
           1.09               1 
          1.095               2 
            1.1               7 
          1.105               3 
           1.11               5 
          1.115               3 
           1.12               2 
          1.125               6 
           1.13               7 
          1.135               6 
           1.14               3 
          1.145               5 
           1.15               7 
          1.155               7 
           1.16               5 
          1.165               3 
           1.17               4 
          1.175              13 
           1.18               4 
          1.185               5 
           1.19               0 
          1.195               5 
            1.2               4 
          1.205               2 
           1.21               3 
          1.215               6 
           1.22               3 
          1.225               4 
           1.23               3 
          1.235               7 
           1.24               7 
          1.245               4 
           1.25               6 
          1.255               4 
           1.26               3 
          1.265               8 
           1.27               4 
          1.275               5 
           1.28               3 
          1.285               5 
           1.29               6 
          1.295               5 
            1.3               0 
          1.305               2 
           1.31               1 
          1.315               3 
           1.32               1 
          1.325               3 
           1.33               5 
          1.335               4 
           1.34               4 
          1.345               3 
           1.35               2 
          1.355               2 
           1.36               5 
          1.365               1 
           1.37               6 
          1.375               4 
           1.38               4 
          1.385               4 
           1.39               2 
          1.395               2 
            1.4               5 
          1.405               3 
           1.41               2 
          1.415               6 
           1.42               1 
          1.425               1 
           1.43               5 
          1.435               2 
           1.44               0 
          1.445               2 
           1.45               5 
          1.455               5 
           1.46               1 
          1.465               2 
           1.47               1 
          1.475               4 
           1.48               2 
          1.485               1 
           1.49               5 
          1.495               6 
            1.5               2 
          1.505               4 
           1.51               5 
          1.515               1 
           1.52               0 
          1.525               2 
           1.53               8 
          1.535               2 
           1.54               3 
          1.545               3 
           1.55               1 
          1.555               0 
           1.56               4 
          1.565               2 
           1.57               1 
          1.575               3 
           1.58               3 
          1.585               2 
           1.59               1 
          1.595               1 
            1.6               5 
          1.605               5 
           1.61               1 
          1.615               3 
           1.62               1 
          1.625               0 
           1.63               3 
          1.635               0 
           1.64               2 
          1.645               1 
           1.65               2 
          1.655               4 
           1.66               4 
          1.665               6 
           1.67               2 
          1.675               1 
           1.68               1 
          1.685               6 
           1.69               3 
          1.695               3 
            1.7               2 
          1.705               3 
           1.71               2 
          1.715               3 
           1.72               1 
          1.725               3 
           1.73               2 
          1.735               2 
           1.74               3 
          1.745               2 
           1.75               5 
          1.755               3 
           1.76               2 
          1.765               4 
           1.77               4 
          1.775               2 
           1.78               4 
          1.785               1 
           1.79               3 
          1.795               3 
            1.8               2 
          1.805               3 
           1.81               5 
          1.815               0 
           1.82               4 
          1.825               3 
           1.83               0 
          1.835               3 
           1.84               5 
          1.845               2 
           1.85               4 
          1.855               3 
           1.86               5 
          1.865               1 
           1.87               5 
          1.875               3 
           1.88               4 
          1.885               3 
           1.89               2 
          1.895               3 
            1.9               3 
          1.905               1 
           1.91               1 
          1.915               3 
           1.92               4 
          1.925               2 
           1.93               2 
          1.935               0 
           1.94               3 
          1.945               3 
           1.95               5 
          1.955               2 
           1.96               1 
          1.965               1 
           1.97               0 
          1.975               2 
           1.98               3 
          1.985               5 
           1.99               4 
          1.995               0 
              2               2 
          2.005               2 
           2.01               2 
          2.015               3 
           2.02               5 
          2.025               3 
           2.03               2 
          2.035               1 
           2.04               3 
          2.045               1 
           2.05               0 
          2.055               2 
           2.06               2 
          2.065               4 
           2.07               2 
          2.075               0 
           2.08               1 
          2.085               6 
           2.09               2 
          2.095               3 
            2.1               3 
          2.105               7 
           2.11               2 
          2.115               4 
           2.12               3 
          2.125               0 
           2.13               2 
          2.135               1 
           2.14               5 
          2.145               6 
           2.15               0 
          2.155               2 
           2.16               3 
          2.165               0 
           2.17               3 
          2.175               3 
           2.18               4 
          2.185               1 
           2.19               1 
          2.195               2 
            2.2               3 
          2.205               1 
           2.21               2 
          2.215               2 
           2.22               2 
          2.225               3 
           2.23               2 
          2.235               4 
           2.24               1 
          2.245               2 
           2.25               6 
          2.255               4 
           2.26               5 
          2.265               1 
           2.27               1 
          2.275               2 
           2.28               3 
          2.285               3 
           2.29               1 
          2.295               1 
            2.3               2 
          2.305               2 
           2.31               1 
          2.315               3 
           2.32               1 
          2.325               1 
           2.33               5 
          2.335               0 
           2.34               0 
          2.345               3 
           2.35               1 
          2.355               0 
           2.36               4 
          2.365               1 
           2.37               4 
          2.375               1 
           2.38               1 
          2.385               3 
           2.39               1 
          2.395               3 
            2.4               2 
          2.405               3 
           2.41               0 
          2.415               1 
           2.42               3 
          2.425               2 
           2.43               5 
          2.435               3 
           2.44               0 
          2.445               0 
           2.45               2 
          2.455               1 
           2.46               2 
          2.465               2 
           2.47               1 
          2.475               3 
           2.48               0 
          2.485               2 
           2.49               2 
          2.495               5 
            2.5               1 
          2.505               4 
           2.51               1 
          2.515               1 
           2.52               0 
          2.525               0 
           2.53               2 
          2.535               2 
           2.54               2 
          2.545               2 
           2.55               2 
          2.555               4 
           2.56               2 
          2.565               4 
           2.57               2 
          2.575               3 
           2.58               2 
          2.585               1 
           2.59               0 
          2.595               1 
            2.6               2 
          2.605               7 
           2.61               1 
          2.615               2 
           2.62               0 
          2.625               2 
           2.63               2 
          2.635               2 
           2.64               3 
          2.645               0 
           2.65               2 
          2.655               2 
           2.66               0 
          2.665               0 
           2.67               0 
          2.675               2 
           2.68               1 
          2.685               4 
           2.69               1 
          2.695               3 
            2.7               1 
          2.705               1 
           2.71               1 
          2.715               3 
           2.72               0 
          2.725               3 
           2.73               1 
          2.735               0 
           2.74               2 
          2.745               0 
           2.75               1 
          2.755               1 
           2.76               2 
          2.765               1 
           2.77               4 
          2.775               4 
           2.78               0 
          2.785               2 
           2.79               2 
          2.795               3 
            2.8               2 
          2.805               1 
           2.81               1 
          2.815               1 
           2.82               3 
          2.825               5 
           2.83               0 
          2.835               0 
           2.84               3 
          2.845               1 
           2.85               3 
          2.855               1 
           2.86               2 
          2.865               3 
           2.87               1 
          2.875               2 
           2.88               2 
          2.885               1 
           2.89               2 
          2.895               1 
            2.9               0 
          2.905               0 
           2.91               1 
          2.915               3 
           2.92               5 
          2.925               1 
           2.93               2 
          2.935               5 
           2.94               1 
          2.945               3 
           2.95               2 
          2.955               3 
           2.96               3 
          2.965               1 
           2.97               3 
          2.975               3 
           2.98               2 
          2.985               3 
           2.99               1 
          2.995               2 
              3               3 
          3.005               2 
           3.01               2 
          3.015               0 
           3.02               0 
          3.025               0 
           3.03               2 
          3.035               2 
           3.04               0 
          3.045               3 
           3.05               2 
          3.055               4 
           3.06               2 
          3.065               1 
           3.07               2 
          3.075               0 
           3.08               2 
          3.085               1 
           3.09               1 
          3.095               1 
            3.1               3 
          3.105               2 
           3.11               1 
          3.115               0 
           3.12               0 
          3.125               1 
           3.13               0 
          3.135               0 
           3.14               2 
          3.145               2 
           3.15               1 
          3.155               1 
           3.16               1 
          3.165               1 
           3.17               0 
          3.175               5 
           3.18               5 
          3.185               3 
           3.19               2 
          3.195               3 
            3.2               3 
          3.205               0 
           3.21               2 
          3.215               2 
           3.22               3 
          3.225               5 
           3.23               4 
          3.235               0 
           3.24               2 
          3.245               2 
           3.25               6 
          3.255               2 
           3.26               1 
          3.265               2 
           3.27               3 
          3.275               4 
           3.28               3 
          3.285               3 
           3.29               1 
          3.295               2 
            3.3               3 
          3.305               3 
           3.31               4 
          3.315               6 
           3.32               1 
          3.325               4 
           3.33               4 
          3.335               1 
           3.34               1 
          3.345               1 
           3.35               4 
          3.355               0 
           3.36               0 
          3.365               1 
           3.37               2 
          3.375               3 
           3.38               2 
          3.385               6 
           3.39               1 
          3.395               1 
            3.4               3 
          3.405               3 
           3.41               1 
          3.415               3 
           3.42               0 
          3.425               2 
           3.43               2 
          3.435               0 
           3.44               1 
          3.445               2 
           3.45               1 
          3.455               1 
           3.46               4 
          3.465               2 
           3.47               3 
          3.475               1 
           3.48               2 
          3.485               2 
           3.49               2 
          3.495               5 
            3.5               2 
          3.505               1 
           3.51               3 
          3.515               2 
           3.52               1 
          3.525               0 
           3.53               4 
          3.535               1 
           3.54               4 
          3.545               2 
           3.55               1 
          3.555               4 
           3.56               2 
          3.565               1 
           3.57               3 
          3.575               3 
           3.58               1 
          3.585               3 
           3.59               2 
          3.595               3 
            3.6               2 
          3.605               5 
           3.61               1 
          3.615               1 
           3.62               4 
          3.625               1 
           3.63               5 
          3.635               0 
           3.64               2 
          3.645               2 
           3.65               3 
          3.655               2 
           3.66               2 
          3.665               4 
           3.67               0 
          3.675               1 
           3.68               2 
          3.685               2 
           3.69               3 
          3.695               2 
            3.7               2 
          3.705               0 
           3.71               1 
          3.715               2 
           3.72               5 
          3.725               3 
           3.73               3 
          3.735               2 
           3.74               2 
          3.745               1 
           3.75               2 
          3.755               0 
           3.76               3 
          3.765               0 
           3.77               1 
          3.775               4 
           3.78               4 
          3.785               3 
           3.79               0 
          3.795               1 
            3.8               4 
          3.805               3 
           3.81               0 
          3.815               2 
           3.82               1 
          3.825               2 
           3.83               6 
          3.835               2 
           3.84               0 
          3.845               3 
           3.85               1 
          3.855               0 
           3.86               1 
          3.865               3 
           3.87               2 
          3.875               2 
           3.88               2 
          3.885               2 
           3.89               1 
          3.895               3 
            3.9               2 
          3.905               1 
           3.91               0 
          3.915               1 
           3.92               3 
          3.925               2 
           3.93               1 
          3.935               5 
           3.94               1 
          3.945               0 
           3.95               3 
          3.955               4 
           3.96               4 
          3.965               3 
           3.97               1 
          3.975               3 
           3.98               3 
          3.985               2 
           3.99               2 
          3.995               2 
              4               3 
          4.005               3 
           4.01               3 
          4.015               0 
           4.02               2 
          4.025               4 
           4.03               2 
          4.035               3 
           4.04               0 
          4.045               1 
           4.05               3 
          4.055               1 
           4.06               2 
          4.065               1 
           4.07               5 
          4.075               1 
           4.08               1 
          4.085               3 
           4.09               2 
          4.095               2 
            4.1               1 
          4.105               2 
           4.11               4 
          4.115               0 
           4.12               0 
          4.125               2 
           4.13               0 
          4.135               0 
           4.14               3 
          4.145               2 
           4.15               0 
          4.155               0 
           4.16               3 
          4.165               0 
           4.17               6 
          4.175               1 
           4.18               3 
          4.185               1 
           4.19               4 
          4.195               2 
            4.2               2 
          4.205               2 
           4.21               0 
          4.215               2 
           4.22               0 
          4.225               1 
           4.23               3 
          4.235               2 
           4.24               0 
          4.245               1 
           4.25               0 
          4.255               1 
           4.26               3 
          4.265               5 
           4.27               4 
          4.275               2 
           4.28               3 
          4.285               0 
           4.29               2 
          4.295               3 
            4.3               0 
          4.305               4 
           4.31               1 
          4.315               1 
           4.32               1 
          4.325               2 
           4.33               1 
          4.335               0 
           4.34               2 
          4.345               3 
           4.35               0 
          4.355               3 
           4.36               1 
          4.365               1 
           4.37               2 
          4.375               1 
           4.38               2 
          4.385               2 
           4.39               0 
          4.395               2 
            4.4               1 
          4.405               1 
           4.41               4 
          4.415               0 
           4.42               1 
          4.425               1 
           4.43               2 
          4.435               0 
           4.44               2 
          4.445               2 
           4.45               2 
          4.455               5 
           4.46               1 
          4.465               2 
           4.47               2 
          4.475               3 
           4.48               3 
          4.485               1 
           4.49               1 
          4.495               1 
            4.5               1 
          4.505               3 
           4.51               0 
          4.515               2 
           4.52               0 
          4.525               2 
           4.53               1 
          4.535               1 
           4.54               1 
          4.545               2 
           4.55               2 
          4.555               6 
           4.56               0 
          4.565               0 
           4.57               4 
          4.575               1 
           4.58               0 
          4.585               0 
           4.59               1 
          4.595               3 
            4.6               1 
          4.605               0 
           4.61               1 
          4.615               0 
           4.62               2 
          4.625               2 
           4.63               0 
          4.635               1 
           4.64               3 
          4.645               1 
           4.65               1 
          4.655               3 
           4.66               3 
          4.665               1 
           4.67               1 
          4.675               0 
           4.68               1 
          4.685               2 
           4.69               3 
          4.695               0 
            4.7               0 
          4.705               1 
           4.71               4 
          4.715               3 
           4.72               0 
          4.725               2 
           4.73               1 
          4.735               1 
           4.74               4 
          4.745               1 
           4.75               2 
          4.755               2 
           4.76               3 
          4.765               3 
           4.77               0 
          4.775               2 
           4.78               1 
          4.785               2 
           4.79               2 
          4.795               1 
            4.8               4 
          4.805               3 
           4.81               0 
          4.815               2 
           4.82               3 
          4.825               3 
           4.83               2 
          4.835               1 
           4.84               2 
          4.845               1 
           4.85               1 
          4.855               0 
           4.86               5 
          4.865               1 
           4.87               2 
          4.875               2 
           4.88               1 
          4.885               2 
           4.89               1 
          4.895               2 
            4.9               2 
          4.905               2 
           4.91               1 
          4.915               2 
           4.92               2 
          4.925               4 
           4.93               1 
          4.935               4 
           4.94               0 
          4.945               0 
           4.95               1 
          4.955               0 
           4.96               2 
          4.965               2 
           4.97               1 
          4.975               2 
           4.98               5 
          4.985               1 
           4.99               3 
          4.995               3 
              5               2 
          5.005               2 
           5.01               5 
          5.015               1 
           5.02               1 
          5.025               3 
           5.03               0 
          5.035               2 
           5.04               3 
          5.045               2 
           5.05               0 
          5.055               1 
           5.06               0 
          5.065               0 
           5.07               1 
          5.075               1 
           5.08               0 
          5.085               3 
           5.09               2 
          5.095               2 
            5.1               2 
          5.105               4 
           5.11               1 
          5.115               2 
           5.12               2 
          5.125               4 
           5.13               1 
          5.135               2 
           5.14               2 
          5.145               1 
           5.15               3 
          5.155               6 
           5.16               1 
          5.165               1 
           5.17               1 
          5.175               0 
           5.18               4 
          5.185               6 
           5.19               0 
          5.195               3 
            5.2               1 
          5.205               0 
           5.21               2 
          5.215               1 
           5.22               2 
          5.225               0 
           5.23               0 
          5.235               0 
           5.24               1 
          5.245               0 
           5.25               3 
          5.255               2 
           5.26               1 
          5.265               3 
           5.27               0 
          5.275               2 
           5.28               2 
          5.285               1 
           5.29               2 
          5.295               4 
            5.3               0 
          5.305               1 
           5.31               3 
          5.315               2 
           5.32               1 
          5.325               3 
           5.33               2 
          5.335               2 
           5.34               2 
          5.345               2 
           5.35               2 
          5.355               1 
           5.36               0 
          5.365               3 
           5.37               0 
          5.375               3 
           5.38               0 
          5.385               0 
           5.39               0 
          5.395               1 
            5.4               2 
          5.405               0 
           5.41               0 
          5.415               1 
           5.42               0 
          5.425               0 
           5.43               0 
          5.435               2 
           5.44               2 
          5.445               1 
           5.45               1 
          5.455               1 
           5.46               3 
          5.465               0 
           5.47               1 
          5.475               0 
           5.48               1 
          5.485               2 
           5.49               0 
          5.495               1 
            5.5               1 
          5.505               1 
           5.51               0 
          5.515               2 
           5.52               1 
          5.525               0 
           5.53               1 
          5.535               2 
           5.54               2 
          5.545               0 
           5.55               0 
          5.555               0 
           5.56               2 
          5.565               1 
           5.57               3 
          5.575               2 
           5.58               2 
          5.585               1 
           5.59               5 
          5.595               2 
            5.6               3 
          5.605               0 
           5.61               0 
          5.615               2 
           5.62               1 
          5.625               2 
           5.63               2 
          5.635               1 
           5.64               0 
          5.645               2 
           5.65               1 
          5.655               0 
           5.66               0 
          5.665               3 
           5.67               0 
          5.675               1 
           5.68               2 
          5.685               0 
           5.69               1 
          5.695               0 
            5.7               3 
          5.705               1 
           5.71               1 
          5.715               3 
           5.72               1 
          5.725               1 
           5.73               1 
          5.735               3 
           5.74               3 
          5.745               1 
           5.75               1 
          5.755               3 
           5.76               3 
          5.765               3 
           5.77               1 
          5.775               2 
           5.78               1 
          5.785               3 
           5.79               3 
          5.795               3 
            5.8               2 
          5.805               1 
           5.81               1 
          5.815               1 
           5.82               1 
          5.825               0 
           5.83               5 
          5.835               1 
           5.84               0 
          5.845               1 
           5.85               3 
          5.855               1 
           5.86               4 
          5.865               4 
           5.87               2 
          5.875               2 
           5.88               0 
          5.885               2 
           5.89               2 
          5.895               2 
            5.9               1 
          5.905               2 
           5.91               3 
          5.915               1 
           5.92               2 
          5.925               2 
           5.93               2 
          5.935               0 
           5.94               3 
          5.945               0 
           5.95               1 
          5.955               1 
           5.96               3 
          5.965               1 
           5.97               1 
          5.975               1 
           5.98               1 
          5.985               2 
           5.99               3 
          5.995               4 
              6               0 
          6.005               2 
           6.01               0 
          6.015               4 
           6.02               1 
          6.025               0 
           6.03               0 
          6.035               2 
           6.04               3 
          6.045               1 
           6.05               3 
          6.055               2 
           6.06               2 
          6.065               3 
           6.07               2 
          6.075               1 
           6.08               2 
          6.085               0 
           6.09               4 
          6.095               2 
            6.1               0 
          6.105               4 
           6.11               2 
          6.115               1 
           6.12               4 
          6.125               1 
           6.13               0 
          6.135               1 
           6.14               0 
          6.145               2 
           6.15               2 
          6.155               1 
           6.16               1 
          6.165               2 
           6.17               0 
          6.175               2 
           6.18               4 
          6.185               1 
           6.19               1 
          6.195               1 
            6.2               0 
          6.205               1 
           6.21               1 
          6.215               1 
           6.22               4 
          6.225               3 
           6.23               4 
          6.235               2 
           6.24               1 
          6.245               2 
           6.25               0 
          6.255               1 
           6.26               2 
          6.265               1 
           6.27               2 
          6.275               1 
           6.28               1 
          6.285               2 
           6.29               2 
          6.295               3 
            6.3               0 
          6.305               2 
           6.31               4 
          6.315               0 
           6.32               0 
          6.325               0 
           6.33               0 
          6.335               2 
           6.34               0 
          6.345               2 
           6.35               1 
          6.355               0 
           6.36               1 
          6.365               2 
           6.37               0 
          6.375               2 
           6.38               1 
          6.385               0 
           6.39               4 
          6.395               1 
            6.4               2 
          6.405               1 
           6.41               1 
          6.415               1 
           6.42               0 
          6.425               1 
           6.43               1 
          6.435               1 
           6.44               0 
          6.445               1 
           6.45               0 
          6.455               3 
           6.46               1 
          6.465               7 
           6.47               4 
          6.475               1 
           6.48               3 
          6.485               1 
           6.49               2 
          6.495               1 
            6.5               2 
          6.505               4 
           6.51               3 
          6.515               6 
           6.52               2 
          6.525               1 
           6.53               1 
          6.535               1 
           6.54               2 
          6.545               1 
           6.55               2 
          6.555               6 
           6.56               1 
          6.565               0 
           6.57               4 
          6.575               4 
           6.58               3 
          6.585               2 
           6.59               3 
          6.595               1 
            6.6               2 
          6.605               2 
           6.61               2 
          6.615               4 
           6.62               3 
          6.625               5 
           6.63               0 
          6.635               2 
           6.64               5 
          6.645               2 
           6.65               1 
          6.655               4 
           6.66               2 
          6.665               1 
           6.67               1 
          6.675               3 
           6.68               9 
          6.685               3 
           6.69               2 
          6.695               3 
            6.7               2 
          6.705               1 
           6.71               2 
          6.715               4 
           6.72               1 
          6.725               4 
           6.73               0 
          6.735               3 
           6.74               2 
          6.745               3 
           6.75               0 
          6.755               0 
           6.76               1 
          6.765               1 
           6.77               1 
          6.775               3 
           6.78               1 
          6.785               2 
           6.79               1 
          6.795               2 
            6.8               6 
          6.805               2 
           6.81               3 
          6.815               4 
           6.82               0 
          6.825               0 
           6.83               0 
          6.835               0 
           6.84               1 
          6.845               3 
           6.85               1 
          6.855               2 
           6.86               2 
          6.865               1 
           6.87               1 
          6.875               7 
           6.88               0 
          6.885               6 
           6.89               4 
          6.895               0 
            6.9               6 
          6.905               4 
           6.91               2 
          6.915               2 
           6.92               3 
          6.925               0 
           6.93               4 
          6.935               2 
           6.94               4 
          6.945               0 
           6.95               2 
          6.955               2 
           6.96               1 
          6.965               1 
           6.97               1 
          6.975               2 
           6.98               4 
          6.985               3 
           6.99               0 
          6.995               4 
              7               2 
          7.005               6 
           7.01               1 
          7.015               5 
           7.02               1 
          7.025               2 
           7.03               4 
          7.035               3 
           7.04               3 
          7.045               2 
           7.05               4 
          7.055               1 
           7.06               8 
          7.065               2 
           7.07               5 
          7.075               8 
           7.08               5 
          7.085               3 
           7.09               5 
          7.095               3 
            7.1               4 
          7.105               3 
           7.11               5 
          7.115               3 
           7.12               6 
          7.125               4 
           7.13               7 
          7.135               6 
           7.14               2 
          7.145               5 
           7.15               4 
          7.155               7 
           7.16               4 
          7.165               3 
           7.17               4 
          7.175               4 
           7.18               4 
          7.185               4 
           7.19               2 
          7.195               3 
            7.2               3 
          7.205               3 
           7.21               6 
          7.215               8 
           7.22               1 
          7.225               2 
           7.23               1 
          7.235               2 
           7.24               3 
          7.245               5 
           7.25               3 
          7.255               4 
           7.26               4 
          7.265               2 
           7.27               3 
          7.275               5 
           7.28               1 
          7.285               4 
           7.29               4 
          7.295               2 
            7.3               7 
          7.305               9 
           7.31               2 
          7.315               1 
           7.32               5 
          7.325               3 
           7.33               4 
          7.335               2 
           7.34               4 
          7.345               4 
           7.35               2 
          7.355               3 
           7.36               4 
          7.365               2 
           7.37               3 
          7.375               7 
           7.38               5 
          7.385               5 
           7.39               1 
          7.395               2 
            7.4               2 
          7.405               3 
           7.41               0 
          7.415               5 
           7.42               6 
          7.425               1 
           7.43               3 
          7.435               0 
           7.44               4 
          7.445               3 
           7.45               2 
          7.455               3 
           7.46               3 
          7.465               2 
           7.47               1 
          7.475               2 
           7.48               2 
          7.485               4 
           7.49               1 
          7.495               4 
            7.5               3 
          7.505               4 
           7.51               2 
          7.515               3 
           7.52               1 
          7.525               0 
           7.53               1 
          7.535               5 
           7.54               2 
          7.545               1 
           7.55               7 
          7.555               1 
           7.56               4 
          7.565               3 
           7.57               6 
          7.575               1 
           7.58               6 
          7.585               2 
           7.59               2 
          7.595               7 
            7.6               5 
          7.605               3 
           7.61               2 
          7.615               0 
           7.62               1 
          7.625               1 
           7.63               1 
          7.635               3 
           7.64               1 
          7.645               1 
           7.65               7 
          7.655               2 
           7.66               7 
          7.665               4 
           7.67               3 
          7.675               3 
           7.68               4 
          7.685               2 
           7.69               4 
          7.695               6 
            7.7               2 
          7.705               6 
           7.71               2 
          7.715               4 
           7.72               3 
          7.725               5 
           7.73               6 
          7.735               5 
           7.74               3 
          7.745               4 
           7.75               4 
          7.755               1 
           7.76               6 
          7.765               4 
           7.77               2 
          7.775               4 
           7.78               3 
          7.785               6 
           7.79               3 
          7.795               2 
            7.8               5 
          7.805               2 
           7.81               4 
          7.815               3 
           7.82               5 
          7.825               0 
           7.83               2 
          7.835               6 
           7.84               7 
          7.845               3 
           7.85               2 
          7.855               4 
           7.86               5 
          7.865               4 
           7.87               4 
          7.875               3 
           7.88               3 
          7.885               4 
           7.89               1 
          7.895               3 
            7.9               2 
          7.905               3 
           7.91               3 
          7.915               2 
           7.92               2 
          7.925               4 
           7.93               1 
          7.935               1 
           7.94               0 
          7.945               4 
           7.95               0 
          7.955               4 
           7.96               1 
          7.965               0 
           7.97               5 
          7.975               2 
           7.98               4 
          7.985               3 
           7.99               6 
          7.995               2 
              8               3 
          8.005               5 
           8.01               1 
          8.015               5 
           8.02               4 
          8.025               3 
           8.03               1 
          8.035               4 
           8.04               1 
          8.045               2 
           8.05               8 
          8.055               3 
           8.06               2 
          8.065               2 
           8.07               4 
          8.075               6 
           8.08               2 
          8.085               1 
           8.09               6 
          8.095               0 
            8.1               2 
          8.105               3 
           8.11               3 
          8.115               3 
           8.12               6 
          8.125               3 
           8.13               2 
          8.135               2 
           8.14               4 
          8.145               1 
           8.15               1 
          8.155               1 
           8.16               3 
          8.165               3 
           8.17               2 
          8.175               3 
           8.18               2 
          8.185               5 
           8.19               2 
          8.195               3 
            8.2               1 
          8.205               6 
           8.21               3 
          8.215               2 
           8.22               1 
          8.225               1 
           8.23               2 
          8.235               3 
           8.24               3 
          8.245               9 
           8.25               2 
          8.255               2 
           8.26               1 
          8.265               7 
           8.27               5 
          8.275               0 
           8.28               3 
          8.285               1 
           8.29               4 
          8.295               3 
            8.3               1 
          8.305               5 
           8.31               1 
          8.315               2 
           8.32               1 
          8.325               0 
           8.33               3 
          8.335               4 
           8.34               3 
          8.345               2 
           8.35               3 
          8.355               2 
           8.36               2 
          8.365               2 
           8.37               2 
          8.375               2 
           8.38               0 
          8.385               1 
           8.39               0 
          8.395               2 
            8.4               3 
          8.405               2 
           8.41               2 
          8.415               1 
           8.42               2 
          8.425               2 
           8.43               4 
          8.435               1 
           8.44               2 
          8.445               6 
           8.45               1 
          8.455               2 
           8.46               4 
          8.465               1 
           8.47               4 
          8.475               2 
           8.48               1 
          8.485               1 
           8.49               4 
          8.495               1 
            8.5               2 
          8.505               2 
           8.51               5 
          8.515               5 
           8.52               7 
          8.525               2 
           8.53               7 
          8.535               1 
           8.54               2 
          8.545               5 
           8.55               1 
          8.555               4 
           8.56               3 
          8.565               3 
           8.57               4 
          8.575               1 
           8.58               6 
          8.585               4 
           8.59               4 
          8.595               6 
            8.6               6 
          8.605               5 
           8.61               6 
          8.615               6 
           8.62               7 
          8.625               7 
           8.63               7 
          8.635               8 
           8.64               9 
          8.645               6 
           8.65              10 
          8.655               6 
           8.66              11 
          8.665              14 
           8.67              10 
          8.675              12 
           8.68               5 
          8.685              11 
           8.69              15 
          8.695              19 
            8.7              13 
          8.705              13 
           8.71              12 
          8.715              10 
           8.72              15 
          8.725              18 
           8.73              15 
          8.735              15 
           8.74              22 
          8.745              16 
           8.75              15 
          8.755              17 
           8.76              18 
          8.765              13 
           8.77              15 
          8.775              19 
           8.78              21 
          8.785              19 
           8.79              17 
          8.795              18 
            8.8              16 
          8.805              17 
           8.81              21 
          8.815              16 
           8.82              19 
          8.825              14 
           8.83              25 
          8.835              17 
           8.84              19 
          8.845              13 
           8.85               9 
          8.855               9 
           8.86              15 
          8.865              14 
           8.87              11 
          8.875              14 
           8.88               7 
          8.885               7 
           8.89              14 
          8.895              12 
            8.9              12 
          8.905               9 
           8.91               8 
          8.915               8 
           8.92               9 
          8.925              12 
           8.93               8 
          8.935              16 
           8.94              11 
          8.945              11 
           8.95               6 
          8.955               6 
           8.96               8 
          8.965               5 
           8.97               2 
          8.975              10 
           8.98               8 
          8.985               3 
           8.99               4 
          8.995               4 
              9               5 
          9.005               8 
           9.01              10 
          9.015               6 
           9.02               3 
          9.025               6 
           9.03               6 
          9.035               5 
           9.04               4 
          9.045               2 
           9.05               3 
          9.055               5 
           9.06               5 
          9.065               4 
           9.07               0 
          9.075               5 
           9.08               1 
          9.085               3 
           9.09               2 
          9.095               4 
            9.1               4 
          9.105               1 
           9.11               3 
          9.115               3 
           9.12               3 
          9.125               5 
           9.13               3 
          9.135               3 
           9.14              10 
          9.145               4 
           9.15               1 
          9.155               4 
           9.16               4 
          9.165               3 
           9.17               3 
          9.175               3 
           9.18               4 
          9.185               3 
           9.19               1 
          9.195               4 
            9.2               9 
          9.205               3 
           9.21               4 
          9.215               0 
           9.22               1 
          9.225               4 
           9.23               1 
          9.235               4 
           9.24               3 
          9.245               1 
           9.25               7 
          9.255               6 
           9.26               1 
          9.265               6 
           9.27               2 
          9.275               0 
           9.28               2 
          9.285               6 
           9.29               3 
          9.295               1 
            9.3               2 
          9.305               1 
           9.31               2 
          9.315               3 
           9.32               5 
          9.325               1 
           9.33               3 
          9.335               1 
           9.34               3 
          9.345               5 
           9.35               0 
          9.355               7 
           9.36               5 
          9.365               4 
           9.37               3 
          9.375               4 
           9.38               5 
          9.385               1 
           9.39               6 
          9.395               3 
            9.4               0 
          9.405               0 
           9.41               3 
          9.415               3 
           9.42               3 
          9.425               2 
           9.43               4 
          9.435               3 
           9.44               4 
          9.445               1 
           9.45               5 
          9.455               1 
           9.46               1 
          9.465               3 
           9.47               3 
          9.475               3 
           9.48               5 
          9.485               4 
           9.49               3 
          9.495               2 
            9.5               5 
          9.505               4 
           9.51               5 
          9.515               4 
           9.52               2 
          9.525               3 
           9.53               1 
          9.535               4 
           9.54               5 
          9.545               7 
           9.55               3 
          9.555               7 
           9.56               5 
          9.565               5 
           9.57               5 
          9.575               5 
           9.58               8 
          9.585               5 
           9.59               4 
          9.595               4 
            9.6               7 
          9.605               5 
           9.61               9 
          9.615               6 
           9.62               5 
          9.625               8 
           9.63               3 
          9.635               4 
           9.64               5 
          9.645               8 
           9.65               7 
          9.655               6 
           9.66               7 
          9.665              11 
           9.67               8 
          9.675               5 
           9.68               6 
          9.685               7 
           9.69              10 
          9.695              14 
            9.7               8 
          9.705               8 
           9.71               8 
          9.715               6 
           9.72               5 
          9.725              11 
           9.73              13 
          9.735              18 
           9.74               9 
          9.745               7 
           9.75               8 
          9.755               4 
           9.76              11 
          9.765               8 
           9.77               7 
          9.775               6 
           9.78               7 
          9.785               6 
           9.79              10 
          9.795               4 
            9.8               5 
          9.805              11 
           9.81               6 
          9.815               4 
           9.82               5 
          9.825               6 
           9.83               4 
          9.835              11 
           9.84               3 
          9.845               9 
           9.85               8 
          9.855               4 
           9.86               7 
          9.865               6 
           9.87               4 
          9.875               5 
           9.88               4 
          9.885               4 
           9.89               2 
          9.895               5 
            9.9               8 
          9.905               7 
           9.91               4 
          9.915              10 
           9.92               9 
          9.925               4 
           9.93               4 
          9.935               6 
           9.94               9 
          9.945               9 
           9.95               5 
          9.955               9 
           9.96               7 
          9.965               5 
           9.97               8 
          9.975               6 
           9.98               7 
          9.985               7 
           9.99               3 
          9.995              11 
             10              12 
         10.005               3 
          10.01               4 
         10.015               7 
          10.02               8 
         10.025               9 
          10.03               6 
         10.035              11 
          10.04               6 
         10.045               7 
          10.05               9 
         10.055               7 
          10.06               8 
         10.065               9 
          10.07               7 
         10.075               8 
          10.08              10 
         10.085               9 
          10.09               7 
         10.095               5 
           10.1              12 
         10.105               4 
          10.11               8 
         10.115              13 
          10.12               8 
         10.125              10 
          10.13               7 
         10.135              15 
          10.14              10 
         10.145              10 
          10.15              13 
         10.155              12 
          10.16              13 
         10.165              18 
          10.17              11 
         10.175              10 
          10.18              14 
         10.185               8 
          10.19              12 
         10.195              12 
           10.2              14 
         10.205               9 
          10.21              11 
         10.215              11 
          10.22               8 
         10.225              12 
          10.23              11 
         10.235              12 
          10.24              11 
         10.245              11 
          10.25              12 
         10.255              13 
          10.26              11 
         10.265              13 
          10.27              12 
         10.275              16 
          10.28              19 
         10.285              11 
          10.29              11 
         10.295              11 
           10.3              15 
         10.305               9 
          10.31               8 
         10.315               8 
          10.32               9 
         10.325              14 
          10.33              15 
         10.335               9 
          10.34              18 
         10.345              15 
          10.35              13 
         10.355              13 
          10.36               7 
         10.365              16 
          10.37               8 
         10.375               9 
          10.38               8 
         10.385              11 
          10.39              15 
         10.395              13 
           10.4              14 
         10.405              13 
          10.41               7 
         10.415              17 
          10.42              13 
         10.425              19 
          10.43               9 
         10.435              15 
          10.44              12 
         10.445               9 
          10.45               7 
         10.455              15 
          10.46              15 
         10.465               9 
          10.47              12 
         10.475              14 
          10.48              11 
         10.485              17 
          10.49              20 
         10.495              10 
           10.5              12 
         10.505              12 
          10.51              13 
         10.515              17 
          10.52              10 
         10.525               8 
          10.53              14 
         10.535               9 
          10.54              10 
         10.545              15 
          10.55               9 
         10.555              14 
          10.56              13 
         10.565               8 
          10.57              12 
         10.575              12 
          10.58               8 
         10.585              13 
          10.59              10 
         10.595              10 
           10.6              10 
         10.605              10 
          10.61              14 
         10.615              11 
          10.62               8 
         10.625              12 
          10.63              16 
         10.635               8 
          10.64              10 
         10.645              10 
          10.65              13 
         10.655              12 
          10.66              16 
         10.665              11 
          10.67              12 
         10.675              12 
          10.68               7 
         10.685              10 
          10.69              11 
         10.695              12 
           10.7              11 
         10.705              10 
          10.71              13 
         10.715               9 
          10.72               4 
         10.725               6 
          10.73              15 
         10.735               9 
          10.74              12 
         10.745              11 
          10.75              14 
         10.755               8 
          10.76               9 
         10.765              14 
          10.77               5 
         10.775              13 
          10.78              10 
         10.785              20 
          10.79              14 
         10.795              12 
           10.8              13 
         10.805               5 
          10.81               9 
         10.815              10 
          10.82              13 
         10.825              11 
          10.83              10 
         10.835              10 
          10.84               6 
         10.845              11 
          10.85               9 
         10.855               4 
          10.86              11 
         10.865               5 
          10.87              14 
         10.875              19 
          10.88               8 
         10.885               7 
          10.89              12 
         10.895               9 
           10.9               9 
         10.905              16 
          10.91               9 
         10.915               9 
          10.92               7 
         10.925              13 
          10.93              12 
         10.935              13 
          10.94              10 
         10.945               6 
          10.95              11 
         10.955              14 
          10.96               6 
         10.965              10 
          10.97               9 
         10.975               5 
          10.98               6 
         10.985               9 
          10.99              14 
         10.995              12 
             11               9 
         11.005              12 
          11.01              11 
         11.015              11 
          11.02               9 
         11.025               8 
          11.03               9 
         11.035               2 
          11.04               6 
         11.045              14 
          11.05               5 
         11.055               9 
          11.06              14 
         11.065              14 
          11.07               8 
         11.075               6 
          11.08               7 
         11.085               6 
          11.09              14 
         11.095               8 
           11.1              14 
         11.105              10 
          11.11              12 
         11.115              16 
          11.12               7 
         11.125               6 
          11.13              16 
         11.135               5 
          11.14               7 
         11.145              15 
          11.15              13 
         11.155              13 
          11.16              10 
         11.165              12 
          11.17              10 
         11.175               9 
          11.18              16 
         11.185              11 
          11.19              11 
         11.195              14 
           11.2              10 
         11.205              10 
          11.21              10 
         11.215               6 
          11.22              20 
         11.225              15 
          11.23              18 
         11.235              16 
          11.24              17 
         11.245               8 
          11.25              13 
         11.255               7 
          11.26               6 
         11.265              12 
          11.27               8 
         11.275               9 
          11.28              13 
         11.285               7 
          11.29              11 
         11.295              16 
           11.3              13 
         11.305              15 
          11.31              12 
         11.315              21 
          11.32              19 
         11.325              16 
          11.33              15 
         11.335              18 
          11.34               9 
         11.345              11 
          11.35              17 
         11.355              16 
          11.36              14 
         11.365              16 
          11.37              14 
         11.375              19 
          11.38              16 
         11.385              14 
          11.39              14 
         11.395              23 
           11.4              18 
         11.405              13 
          11.41              23 
         11.415              14 
          11.42               9 
         11.425              18 
          11.43              17 
         11.435              17 
          11.44              28 
         11.445              17 
          11.45              14 
         11.455              14 
          11.46              18 
         11.465              10 
          11.47              18 
         11.475              13 
          11.48              16 
         11.485              16 
          11.49              17 
         11.495              27 
           11.5              17 
         11.505              15 
          11.51              22 
         11.515              17 
          11.52              22 
         11.525              32 
          11.53              14 
         11.535              18 
          11.54              18 
         11.545              21 
          11.55              20 
         11.555              19 
          11.56              17 
         11.565              20 
          11.57              20 
         11.575              25 
          11.58              23 
         11.585              11 
          11.59              18 
         11.595              26 
           11.6              21 
         11.605              22 
          11.61              12 
         11.615              22 
          11.62              18 
         11.625              20 
          11.63              21 
         11.635              23 
          11.64              22 
         11.645              30 
          11.65              27 
         11.655              29 
          11.66              35 
         11.665              24 
          11.67              23 
         11.675              25 
          11.68              22 
         11.685              22 
          11.69              11 
         11.695              34 
           11.7              31 
         11.705              26 
          11.71              29 
         11.715              39 
          11.72              41 
         11.725              29 
          11.73              42 
         11.735              35 
          11.74              45 
         11.745              48 
          11.75              47 
         11.755              23 
          11.76              38 
         11.765              34 
          11.77              47 
         11.775              46 
          11.78              49 
         11.785              59 
          11.79              50 
         11.795              58 
           11.8              70 
         11.805              61 
          11.81              66 
         11.815              73 
          11.82              88 
         11.825              77 
          11.83              83 
         11.835              75 
          11.84              91 
         11.845              87 
          11.85              98 
         11.855              84 
          11.86             100 
         11.865             102 
          11.87             117 
         11.875             115 
          11.88             102 
         11.885             122 
          11.89             123 
         11.895             109 
           11.9             108 
         11.905             126 
          11.91             128 
         11.915             126 
          11.92             148 
         11.925             128 
          11.93             143 
         11.935             134 
          11.94             142 
         11.945             134 
          11.95             140 
         11.955             144 
          11.96             136 
         11.965             141 
          11.97             139 
         11.975             151 
          11.98             145 
         11.985             147 
          11.99             113 
         11.995             156 
             12             137 
         12.005             120 
          12.01             136 
         12.015             134 
          12.02             120 
         12.025             117 
          12.03             142 
         12.035             111 
          12.04             121 
         12.045             119 
          12.05             109 
         12.055             104 
          12.06             120 
         12.065             113 
          12.07              85 
         12.075              86 
          12.08              77 
         12.085              84 
          12.09              73 
         12.095              67 
           12.1              72 
         12.105              70 
          12.11              67 
         12.115              54 
          12.12              65 
         12.125              46 
          12.13              44 
         12.135              51 
          12.14              44 
         12.145              60 
          12.15              45 
         12.155              47 
          12.16              51 
         12.165              42 
          12.17              25 
         12.175              43 
          12.18              42 
         12.185              36 
          12.19              40 
         12.195              28 
           12.2              19 
         12.205              22 
          12.21              33 
         12.215              29 
          12.22              25 
         12.225              28 
          12.23              17 
         12.235              25 
          12.24              19 
         12.245              17 
          12.25              30 
         12.255              21 
          12.26              16 
         12.265              17 
          12.27              17 
         12.275              16 
          12.28              20 
         12.285              15 
          12.29              20 
         12.295              11 
           12.3              14 
         12.305              18 
          12.31              11 
         12.315              10 
          12.32              15 
         12.325              12 
          12.33              12 
         12.335              17 
          12.34              12 
         12.345              11 
          12.35              10 
         12.355              17 
          12.36              14 
         12.365              13 
          12.37              13 
         12.375              17 
          12.38               6 
         12.385              14 
          12.39               7 
         12.395              14 
           12.4              17 
         12.405              11 
          12.41              10 
         12.415              15 
          12.42              11 
         12.425              16 
          12.43              13 
         12.435              15 
          12.44              14 
         12.445              16 
          12.45              11 
         12.455              10 
          12.46              12 
         12.465               9 
          12.47               9 
         12.475               9 
          12.48              19 
         12.485              17 
          12.49               7 
         12.495              15 
           12.5               8 
         12.505              10 
          12.51              12 
         12.515              10 
          12.52              10 
         12.525               8 
          12.53              15 
         12.535              12 
          12.54              13 
         12.545              14 
          12.55              10 
         12.555              14 
          12.56              14 
         12.565              14 
          12.57              13 
         12.575              16 
          12.58              15 
         12.585              28 
          12.59              13 
         12.595              13 
           12.6              12 
         12.605               5 
          12.61              15 
         12.615              12 
          12.62              17 
         12.625              10 
          12.63              19 
         12.635              14 
          12.64              12 
         12.645              11 
          12.65              14 
         12.655              12 
          12.66              16 
         12.665              19 
          12.67              18 
         12.675              10 
          12.68              13 
         12.685               9 
          12.69              12 
         12.695              14 
           12.7              16 
         12.705              14 
          12.71              20 
         12.715              18 
          12.72               6 
         12.725              18 
          12.73              14 
         12.735              10 
          12.74              12 
         12.745              16 
          12.75              17 
         12.755              14 
          12.76              11 
         12.765              15 
          12.77              13 
         12.775               9 
          12.78              12 
         12.785              11 
          12.79              19 
         12.795              11 
           12.8              14 
         12.805              12 
          12.81               9 
         12.815              14 
          12.82              12 
         12.825              13 
          12.83               7 
         12.835              11 
          12.84              11 
         12.845              11 
          12.85              17 
         12.855              14 
          12.86              18 
         12.865               9 
          12.87              11 
         12.875               5 
          12.88              22 
         12.885              12 
          12.89              16 
         12.895              14 
           12.9              16 
         12.905              11 
          12.91              13 
         12.915              11 
          12.92              13 
         12.925              12 
          12.93              11 
         12.935              13 
          12.94              16 
         12.945              16 
          12.95              10 
         12.955              12 
          12.96              21 
         12.965              17 
          12.97              15 
         12.975              13 
          12.98              11 
         12.985              14 
          12.99              15 
         12.995              14 
             13              16 
         13.005              14 
          13.01              17 
         13.015              14 
          13.02               8 
         13.025              22 
          13.03              15 
         13.035              20 
          13.04              17 
         13.045              14 
          13.05              15 
         13.055              14 
          13.06              19 
         13.065              24 
          13.07              19 
         13.075              19 
          13.08              21 
         13.085              25 
          13.09              19 
         13.095              28 
           13.1              25 
         13.105              34 
          13.11              37 
         13.115              33 
          13.12              46 
         13.125              33 
          13.13              32 
         13.135              29 
          13.14              25 
         13.145              41 
          13.15              42 
         13.155              36 
          13.16              45 
         13.165              41 
          13.17              55 
         13.175              64 
          13.18              48 
         13.185              44 
          13.19              61 
         13.195              85 
           13.2              67 
         13.205              82 
          13.21              95 
         13.215              70 
          13.22              98 
         13.225             115 
          13.23             104 
         13.235              88 
          13.24             107 
         13.245             113 
          13.25             121 
         13.255             127 
          13.26             131 
         13.265             126 
          13.27             132 
         13.275             128 
          13.28             138 
         13.285             171 
          13.29             157 
         13.295             158 
           13.3             163 
         13.305             178 
          13.31             151 
         13.315             179 
          13.32             179 
         13.325             173 
          13.33             185 
         13.335             216 
          13.34             202 
         13.345             206 
          13.35             212 
         13.355             200 
          13.36             216 
         13.365             171 
          13.37             213 
         13.375             216 
          13.38             196 
         13.385             209 
          13.39             188 
         13.395             184 
           13.4             209 
         13.405             195 
          13.41             176 
         13.415             199 
          13.42             169 
         13.425             179 
          13.43             181 
         13.435             191 
          13.44             144 
         13.445             161 
          13.45             170 
         13.455             140 
          13.46             158 
         13.465             146 
          13.47             129 
         13.475             165 
          13.48             120 
         13.485             162 
          13.49             123 
         13.495             126 
           13.5             103 
         13.505             122 
          13.51              99 
         13.515              97 
          13.52             100 
         13.525              96 
          13.53              90 
         13.535              92 
          13.54              80 
         13.545              65 
          13.55              75 
         13.555              58 
          13.56              72 
         13.565              59 
          13.57              52 
         13.575              51 
          13.58              57 
         13.585              53 
          13.59              46 
         13.595              31 
           13.6              35 
         13.605              35 
          13.61              49 
         13.615              36 
          13.62              31 
         13.625              30 
          13.63              32 
         13.635              27 
          13.64              36 
         13.645              25 
          13.65              17 
         13.655              18 
          13.66              22 
         13.665              14 
          13.67              22 
         13.675              16 
          13.68              16 
         13.685              13 
          13.69              15 
         13.695              14 
           13.7              14 
         13.705              11 
          13.71              14 
         13.715              13 
          13.72              10 
         13.725              11 
          13.73              15 
         13.735              14 
          13.74              17 
         13.745              10 
          13.75               9 
         13.755               9 
          13.76               9 
         13.765              13 
          13.77               8 
         13.775               6 
          13.78              10 
         13.785               9 
          13.79              11 
         13.795              12 
           13.8               9 
         13.805              11 
          13.81               9 
         13.815              11 
          13.82              10 
         13.825               9 
          13.83              14 
         13.835               8 
          13.84               9 
         13.845               9 
          13.85               8 
         13.855              15 
          13.86               9 
         13.865              12 
          13.87               9 
         13.875               9 
          13.88               6 
         13.885              13 
          13.89               5 
         13.895               7 
           13.9              15 
         13.905              12 
          13.91              12 
         13.915               6 
          13.92               9 
         13.925              16 
          13.93              12 
         13.935              10 
          13.94               8 
         13.945               6 
          13.95              16 
         13.955              14 
          13.96              10 
         13.965              12 
          13.97              12 
         13.975               8 
          13.98               9 
         13.985              12 
          13.99              11 
         13.995              14 
             14              13 
         14.005              10 
          14.01              12 
         14.015              11 
          14.02              14 
         14.025              11 
          14.03              13 
         14.035              11 
          14.04               5 
         14.045              12 
          14.05               8 
         14.055              12 
          14.06              18 
         14.065              11 
          14.07              17 
         14.075               8 
          14.08              13 
         14.085              12 
          14.09              15 
         14.095              18 
           14.1              12 
         14.105               7 
          14.11              14 
         14.115              13 
          14.12              14 
         14.125              14 
          14.13               8 
         14.135              12 
          14.14              10 
         14.145              10 
          14.15              14 
         14.155              11 
          14.16              15 
         14.165              16 
          14.17              16 
         14.175              16 
          14.18              17 
         14.185              16 
          14.19              18 
         14.195              11 
           14.2              13 
         14.205              10 
          14.21              13 
         14.215              22 
          14.22              11 
         14.225              11 
          14.23              19 
         14.235              17 
          14.24              23 
         14.245              12 
          14.25              13 
         14.255              11 
          14.26              16 
         14.265              16 
          14.27              11 
         14.275              13 
          14.28              17 
         14.285              13 
          14.29              16 
         14.295              15 
           14.3              18 
         14.305              10 
          14.31              12 
         14.315              12 
          14.32              13 
         14.325              12 
          14.33              19 
         14.335              17 
          14.34              13 
         14.345              18 
          14.35              12 
         14.355              14 
          14.36              20 
         14.365              16 
          14.37              20 
         14.375              13 
          14.38              25 
         14.385              21 
          14.39              23 
         14.395              22 
           14.4              17 
         14.405              22 
          14.41              13 
         14.415              15 
          14.42              21 
         14.425              23 
          14.43              18 
         14.435              16 
          14.44              27 
         14.445              15 
          14.45              25 
         14.455              16 
          14.46              17 
         14.465              18 
          14.47              17 
         14.475              21 
          14.48              15 
         14.485              24 
          14.49              16 
         14.495              18 
           14.5              26 
         14.505              21 
          14.51              24 
         14.515              17 
          14.52              18 
         14.525              16 
          14.53              12 
         14.535              15 
          14.54              18 
         14.545              22 
          14.55              25 
         14.555              27 
          14.56              23 
         14.565              21 
          14.57              17 
         14.575              17 
          14.58              19 
         14.585              15 
          14.59              16 
         14.595              11 
           14.6              24 
         14.605              21 
          14.61              15 
         14.615              19 
          14.62              21 
         14.625              23 
          14.63              19 
         14.635              19 
          14.64              26 
         14.645              21 
          14.65              23 
         14.655              15 
          14.66              30 
         14.665              26 
          14.67              22 
         14.675              25 
          14.68              16 
         14.685              28 
          14.69              20 
         14.695              24 
           14.7              30 
         14.705              23 
          14.71              31 
         14.715              27 
          14.72              25 
         14.725              21 
          14.73              18 
         14.735              27 
          14.74              28 
         14.745              25 
          14.75              23 
         14.755              17 
          14.76              22 
         14.765              29 
          14.77              26 
         14.775              30 
          14.78              20 
         14.785              29 
          14.79              40 
         14.795              34 
           14.8              37 
         14.805              36 
          14.81              35 
         14.815              23 
          14.82              40 
         14.825              46 
          14.83              37 
         14.835              36 
          14.84              37 
         14.845              36 
          14.85              37 
         14.855              39 
          14.86              42 
         14.865              39 
          14.87              40 
         14.875              42 
          14.88              51 
         14.885              35 
          14.89              32 
         14.895              42 
           14.9              47 
         14.905              39 
          14.91              48 
         14.915              51 
          14.92              43 
         14.925              46 
          14.93              41 
         14.935              40 
          14.94              38 
         14.945              45 
          14.95              53 
         14.955              40 
          14.96              58 
         14.965              56 
          14.97              45 
         14.975              38 
          14.98              33 
         14.985              46 
          14.99              44 
         14.995              42 
             15              39 
         15.005              43 
          15.01              40 
         15.015              41 
          15.02              31 
         15.025              38 
          15.03              33 
         15.035              44 
          15.04              40 
         15.045              34 
          15.05              28 
         15.055              27 
          15.06              27 
         15.065              34 
          15.07              27 
         15.075              34 
          15.08              27 
         15.085              33 
          15.09              28 
         15.095              33 
           15.1              28 
         15.105              26 
          15.11              23 
         15.115              30 
          15.12              23 
         15.125              30 
          15.13              22 
         15.135              18 
          15.14              34 
         15.145              28 
          15.15              23 
         15.155              21 
          15.16              22 
         15.165              30 
          15.17              24 
         15.175              30 
          15.18              16 
         15.185              20 
          15.19              21 
         15.195              28 
           15.2              22 
         15.205              19 
          15.21              26 
         15.215              16 
          15.22              22 
         15.225              25 
          15.23              32 
         15.235              23 
          15.24              24 
         15.245              17 
          15.25              26 
         15.255              17 
          15.26              24 
         15.265              20 
          15.27              20 
         15.275              17 
          15.28              24 
         15.285              22 
          15.29              20 
         15.295              22 
           15.3              14 
         15.305              25 
          15.31              28 
         15.315              17 
          15.32              14 
         15.325              19 
          15.33              21 
         15.335              17 
          15.34              28 
         15.345              18 
          15.35              17 
         15.355              24 
          15.36              21 
         15.365              20 
          15.37              15 
         15.375              22 
          15.38              31 
         15.385              18 
          15.39              19 
         15.395              25 
           15.4              22 
         15.405              20 
          15.41              22 
         15.415              21 
          15.42              17 
         15.425              23 
          15.43              22 
         15.435              13 
          15.44              27 
         15.445              18 
          15.45              20 
         15.455              17 
          15.46              18 
         15.465              20 
          15.47              20 
         15.475              25 
          15.48              21 
         15.485              21 
          15.49              23 
         15.495              26 
           15.5              22 
         15.505              20 
          15.51              18 
         15.515              26 
          15.52              23 
         15.525              24 
          15.53              22 
         15.535              19 
          15.54              24 
         15.545              15 
          15.55              27 
         15.555              17 
          15.56              26 
         15.565              25 
          15.57              17 
         15.575              23 
          15.58              18 
         15.585              25 
          15.59              24 
         15.595              24 
           15.6              19 
         15.605              25 
          15.61              27 
         15.615              22 
          15.62              26 
         15.625              13 
          15.63              20 
         15.635              23 
          15.64              37 
         15.645              34 
          15.65              23 
         15.655              31 
          15.66              32 
         15.665              18 
          15.67              37 
         15.675              34 
          15.68              38 
         15.685              29 
          15.69              40 
         15.695              28 
           15.7              35 
         15.705              28 
          15.71              44 
         15.715              31 
          15.72              29 
         15.725              28 
          15.73              31 
         15.735              29 
          15.74              35 
         15.745              38 
          15.75              33 
         15.755              49 
          15.76              38 
         15.765              45 
          15.77              30 
         15.775              45 
          15.78              43 
         15.785              40 
          15.79              40 
         15.795              50 
           15.8              49 
         15.805              58 
          15.81              42 
         15.815              43 
          15.82              42 
         15.825              39 
          15.83              60 
         15.835              50 
          15.84              51 
         15.845              61 
          15.85              45 
         15.855              54 
          15.86              58 
         15.865              65 
          15.87              50 
         15.875              61 
          15.88              52 
         15.885              62 
          15.89              88 
         15.895              58 
           15.9              60 
         15.905              69 
          15.91              74 
         15.915              59 
          15.92              65 
         15.925              65 
          15.93              73 
         15.935              71 
          15.94              79 
         15.945              62 
          15.95              73 
         15.955              85 
          15.96              84 
         15.965              66 
          15.97              85 
         15.975              98 
          15.98              80 
         15.985              73 
          15.99              86 
         15.995             106 
             16              73 
         16.005              78 
          16.01              87 
         16.015              79 
          16.02             100 
         16.025              97 
          16.03             101 
         16.035             111 
          16.04              83 
         16.045             104 
          16.05              71 
         16.055              91 
          16.06              83 
         16.065              97 
          16.07              74 
         16.075              95 
          16.08             102 
         16.085              96 
          16.09              91 
         16.095             114 
           16.1              91 
         16.105             104 
          16.11             108 
         16.115             116 
          16.12              96 
         16.125             116 
          16.13             103 
         16.135             105 
          16.14             114 
         16.145              94 
          16.15              99 
         16.155             115 
          16.16              94 
         16.165             100 
          16.17              90 
         16.175              90 
          16.18              94 
         16.185             113 
          16.19              96 
         16.195             101 
           16.2              79 
         16.205              89 
          16.21              89 
         16.215              92 
          16.22              84 
         16.225              94 
          16.23              90 
         16.235              69 
          16.24              82 
         16.245              69 
          16.25              79 
         16.255              78 
          16.26              84 
         16.265              76 
          16.27              88 
         16.275              75 
          16.28              86 
         16.285              68 
          16.29              61 
         16.295              65 
           16.3              66 
         16.305              55 
          16.31              73 
         16.315              64 
          16.32              88 
         16.325              60 
          16.33              60 
         16.335              78 
          16.34              72 
         16.345              57 
          16.35              32 
         16.355              57 
          16.36              52 
         16.365              46 
          16.37              53 
         16.375              61 
          16.38              40 
         16.385              46 
          16.39              53 
         16.395              45 
           16.4              54 
         16.405              37 
          16.41              56 
         16.415              54 
          16.42              47 
         16.425              44 
          16.43              38 
         16.435              45 
          16.44              38 
         16.445              51 
          16.45              27 
         16.455              43 
          16.46              25 
         16.465              33 
          16.47              40 
         16.475              29 
          16.48              20 
         16.485              33 
          16.49              14 
         16.495              36 
           16.5              46 
         16.505              31 
          16.51              29 
         16.515              30 
          16.52              25 
         16.525              19 
          16.53              22 
         16.535              16 
          16.54              15 
         16.545              27 
          16.55              22 
         16.555              29 
          16.56              15 
         16.565              19 
          16.57              22 
         16.575              21 
          16.58              19 
         16.585              18 
          16.59              17 
         16.595              15 
           16.6              20 
         16.605              16 
          16.61              16 
         16.615              26 
          16.62              18 
         16.625              21 
          16.63              19 
         16.635              29 
          16.64              18 
         16.645              20 
          16.65              16 
         16.655              22 
          16.66              21 
         16.665              24 
          16.67              20 
         16.675              23 
          16.68              25 
         16.685              24 
          16.69              29 
         16.695              30 
           16.7              25 
         16.705              33 
          16.71              25 
         16.715              28 
          16.72              30 
         16.725              17 
          16.73              30 
         16.735              28 
          16.74              33 
         16.745              37 
          16.75              39 
         16.755              41 
          16.76              40 
         16.765              38 
          16.77              41 
         16.775              46 
          16.78              37 
         16.785              53 
          16.79              38 
         16.795              46 
           16.8              53 
         16.805              62 
          16.81              54 
         16.815              46 
          16.82              46 
         16.825              46 
          16.83              50 
         16.835              44 
          16.84              57 
         16.845              57 
          16.85              57 
         16.855              55 
          16.86              48 
         16.865              54 
          16.87              59 
         16.875              50 
          16.88              55 
         16.885              41 
          16.89              53 
         16.895              55 
           16.9              50 
         16.905              50 
          16.91              59 
         16.915              60 
          16.92              46 
         16.925              52 
          16.93              52 
         16.935              62 
          16.94              49 
         16.945              43 
          16.95              46 
         16.955              46 
          16.96              25 
         16.965              57 
          16.97              37 
         16.975              48 
          16.98              55 
         16.985              39 
          16.99              42 
         16.995              45 
             17              36 
         17.005              22 
          17.01              35 
         17.015              24 
          17.02              34 
         17.025              27 
          17.03              30 
         17.035              24 
          17.04              23 
         17.045              26 
          17.05              26 
         17.055              25 
          17.06              21 
         17.065              18 
          17.07              23 
         17.075              17 
          17.08              15 
         17.085              10 
          17.09              23 
         17.095              20 
           17.1              12 
         17.105              12 
          17.11              17 
         17.115              14 
          17.12              11 
         17.125               6 
          17.13               7 
         17.135               7 
          17.14               7 
         17.145               5 
          17.15               8 
         17.155               5 
          17.16              10 
         17.165              10 
          17.17               6 
         17.175               3 
          17.18               5 
         17.185               2 
          17.19               5 
         17.195               2 
           17.2               3 
         17.205               1 
          17.21               0 
         17.215               6 
          17.22               6 
         17.225               3 
          17.23               1 
         17.235               1 
          17.24               3 
         17.245               3 
          17.25               2 
         17.255               2 
          17.26               2 
         17.265               1 
          17.27               2 
         17.275               3 
          17.28               1 
         17.285               1 
          17.29               1 
         17.295               1 
           17.3               0 
         17.305               0 
          17.31               5 
         17.315               2 
          17.32               2 
         17.325               4 
          17.33               1 
         17.335               2 
          17.34               1 
         17.345               1 
          17.35               0 
         17.355               0 
          17.36               0 
         17.365               0 
          17.37               0 
         17.375               0 
          17.38               1 
         17.385               0 
          17.39               1 
         17.395               1 
           17.4               0 
         17.405               1 
          17.41               0 
         17.415               0 
          17.42               1 
         17.425               1 
          17.43               1 
         17.435               0 
          17.44               1 
         17.445               2 
          17.45               0 
         17.455               0 
          17.46               0 
         17.465               0 
          17.47               0 
         17.475               1 
          17.48               1 
         17.485               0 
          17.49               0 
         17.495               0 
           17.5               0 
         17.505               1 
          17.51               0 
         17.515               0 
          17.52               0 
         17.525               2 
          17.53               0 
         17.535               0 
          17.54               1 
         17.545               0 
          17.55               2 
         17.555               0 
          17.56               0 
         17.565               0 
          17.57               0 
         17.575               0 
          17.58               0 
         17.585               1 
          17.59               1 
         17.595               0 
           17.6               0 
         17.605               0 
          17.61               0 
         17.615               1 
          17.62               1 
         17.625               0 
          17.63               0 
         17.635               2 
          17.64               2 
         17.645               0 
          17.65               0 
         17.655               1 
          17.66               0 
         17.665               0 
          17.67               0 
         17.675               0 
          17.68               0 
         17.685               0 
          17.69               1 
         17.695               0 
           17.7               0 
         17.705               1 
          17.71               1 
         17.715               0 
          17.72               0 
         17.725               0 
          17.73               0 
         17.735               0 
          17.74               0 
         17.745               0 
          17.75               2 
         17.755               0 
          17.76               0 
         17.765               0 
          17.77               0 
         17.775               0 
          17.78               0 
         17.785               0 
          17.79               1 
         17.795               1 
           17.8               0 
         17.805               0 
          17.81               0 
         17.815               1 
          17.82               0 
         17.825               1 
          17.83               1 
         17.835               0 
          17.84               0 
         17.845               0 
          17.85               2 
         17.855               0 
          17.86               0 
         17.865               1 
          17.87               1 
         17.875               0 
          17.88               0 
         17.885               1 
          17.89               0 
         17.895               0 
           17.9               0 
         17.905               0 
          17.91               0 
         17.915               0 
          17.92               0 
         17.925               0 
          17.93               1 
         17.935               0 
          17.94               0 
         17.945               1 
          17.95               0 
         17.955               1 
          17.96               1 
         17.965               0 
          17.97               0 
         17.975               1 
          17.98               1 
         17.985               0 
          17.99               0 
         17.995               0 
             18               0 
         18.005               0 
          18.01               1 
         18.015               0 
          18.02               0 
         18.025               0 
          18.03               0 
         18.035               0 
          18.04               0 
         18.045               0 
          18.05               0 
         18.055               1 
          18.06               1 
         18.065               1 
          18.07               0 
         18.075               1 
          18.08               1 
         18.085               0 
          18.09               0 
         18.095               0 
           18.1               0 
         18.105               1 
          18.11               0 
         18.115               0 
          18.12               0 
         18.125               0 
          18.13               0 
         18.135               0 
          18.14               0 
         18.145               0 
          18.15               0 
         18.155               0 
          18.16               0 
         18.165               0 
          18.17               0 
         18.175               0 
          18.18               0 
         18.185               0 
          18.19               0 
         18.195               0 
           18.2               1 
         18.205               0 
          18.21               0 
         18.215               0 
          18.22               1 
         18.225               0 
          18.23               0 
         18.235               0 
          18.24               0 
         18.245               0 
          18.25               0 
         18.255               0 
          18.26               0 
         18.265               0 
          18.27               1 
         18.275               0 
          18.28               0 
         18.285               1 
          18.29               0 
         18.295               0 
           18.3               0 
         18.305               1 
          18.31               0 
         18.315               0 
          18.32               1 
         18.325               0 
          18.33               0 
         18.335               0 
          18.34               0 
         18.345               0 
          18.35               2 
         18.355               0 
          18.36               0 
         18.365               0 
          18.37               1 
         18.375               0 
          18.38               0 
         18.385               0 
          18.39               0 
         18.395               0 
           18.4               1 
         18.405               0 
          18.41               0 
         18.415               0 
          18.42               0 
         18.425               0 
          18.43               0 
         18.435               0 
          18.44               0 
         18.445               0 
          18.45               0 
         18.455               1 
          18.46               0 
         18.465               0 
          18.47               0 
         18.475               0 
          18.48               0 
         18.485               0 
          18.49               1 
         18.495               1 
           18.5               0 
         18.505               1 
          18.51               1 
         18.515               0 
          18.52               0 
         18.525               1 
          18.53               1 
         18.535               0 
          18.54               0 
         18.545               0 
          18.55               0 
         18.555               1 
          18.56               0 
         18.565               0 
          18.57               0 
         18.575               0 
          18.58               0 
         18.585               1 
          18.59               1 
         18.595               0 
           18.6               0 
         18.605               0 
          18.61               0 
         18.615               0 
          18.62               0 
         18.625               0 
          18.63               0 
         18.635               0 
          18.64               0 
         18.645               0 
          18.65               0 
         18.655               1 
          18.66               0 
         18.665               0 
          18.67               0 
         18.675               0 
          18.68               0 
         18.685               0 
          18.69               0 
         18.695               1 
           18.7               0 
         18.705               0 
          18.71               0 
         18.715               0 
          18.72               1 
         18.725               1 
          18.73               1 
         18.735               0 
          18.74               0 
         18.745               1 
          18.75               1 
         18.755               0 
          18.76               0 
         18.765               0 
          18.77               0 
         18.775               0 
          18.78               0 
         18.785               0 
          18.79               0 
         18.795               0 
           18.8               1 
         18.805               1 
          18.81               0 
         18.815               1 
          18.82               0 
         18.825               0 
          18.83               0 
         18.835               0 
          18.84               0 
         18.845               1 
          18.85               1 
         18.855               0 
          18.86               0 
         18.865               3 
          18.87               0 
         18.875               0 
          18.88               0 
         18.885               0 
          18.89               0 
         18.895               0 
           18.9               0 
         18.905               0 
          18.91               1 
         18.915               1 
          18.92               0 
         18.925               0 
          18.93               0 
         18.935               0 
          18.94               1 
         18.945               0 
          18.95               0 
         18.955               0 
          18.96               2 
         18.965               0 
          18.97               1 
         18.975               0 
          18.98               0 
         18.985               0 
          18.99               0 
         18.995               0 
             19               0 
         19.005               0 
          19.01               0 
         19.015               0 
          19.02               0 
         19.025               0 
          19.03               0 
         19.035               0 
          19.04               1 
         19.045               1 
          19.05               1 
         19.055               0 
          19.06               0 
         19.065               0 
          19.07               0 
         19.075               0 
          19.08               1 
         19.085               0 
          19.09               0 
         19.095               0 
           19.1               1 
         19.105               0 
          19.11               0 
         19.115               0 
          19.12               0 
         19.125               0 
          19.13               0 
         19.135               0 
          19.14               0 
         19.145               0 
          19.15               0 
         19.155               0 
          19.16               0 
         19.165               0 
          19.17               0 
         19.175               0 
          19.18               0 
         19.185               0 
          19.19               0 
         19.195               1 
           19.2               0 
         19.205               0 
          19.21               0 
         19.215               1 
          19.22               0 
         19.225               0 
          19.23               0 
         19.235               0 
          19.24               0 
         19.245               0 
          19.25               0 
         19.255               0 
          19.26               0 
         19.265               0 
          19.27               0 
         19.275               1 
          19.28               0 
         19.285               1 
          19.29               0 
         19.295               0 
           19.3               0 
         19.305               0 
          19.31               1 
         19.315               1 
          19.32               1 
         19.325               0 
          19.33               0 
         19.335               0 
          19.34               1 
         19.345               0 
          19.35               1 
         19.355               0 
          19.36               0 
         19.365               0 
          19.37               1 
         19.375               0 
          19.38               1 
         19.385               0 
          19.39               0 
         19.395               0 
           19.4               0 
         19.405               0 
          19.41               0 
         19.415               1 
          19.42               0 
         19.425               0 
          19.43               0 
         19.435               0 
          19.44               0 
         19.445               0 
          19.45               0 
         19.455               0 
          19.46               1 
         19.465               0 
          19.47               1 
         19.475               0 
          19.48               0 
         19.485               0 
          19.49               0 
         19.495               0 
           19.5               0 
         19.505               0 
          19.51               0 
         19.515               0 
          19.52               0 
         19.525               1 
          19.53               0 
         19.535               0 
          19.54               0 
         19.545               0 
          19.55               0 
         19.555               0 
          19.56               0 
         19.565               1 
          19.57               0 
         19.575               0 
          19.58               1 
         19.585               0 
          19.59               0 
         19.595               0 
           19.6               0 
         19.605               0 
          19.61               2 
         19.615               1 
          19.62               0 
         19.625               0 
          19.63               0 
         19.635               0 
          19.64               0 
         19.645               0 
          19.65               0 
         19.655               0 
          19.66               0 
         19.665               1 
          19.67               0 
         19.675               0 
          19.68               0 
         19.685               1 
          19.69               0 
         19.695               1 
           19.7               0 
         19.705               0 
          19.71               0 
         19.715               0 
          19.72               0 
         19.725               0 
          19.73               0 
         19.735               1 
          19.74               0 
         19.745               0 
          19.75               0 
         19.755               0 
          19.76               1 
         19.765               0 
          19.77               0 
         19.775               0 
          19.78               1 
         19.785               0 
          19.79               0 
         19.795               0 
           19.8               0 
         19.805               0 
          19.81               0 
         19.815               0 
          19.82               0 
         19.825               0 
          19.83               0 
         19.835               0 
          19.84               0 
         19.845               0 
          19.85               0 
         19.855               1 
          19.86               0 
         19.865               0 
          19.87               0 
         19.875               0 
          19.88               0 
         19.885               1 
          19.89               0 
         19.895               0 
           19.9               1 
         19.905               0 
          19.91               2 
         19.915               0 
          19.92               1 
         19.925               0 
          19.93               1 
         19.935               0 
          19.94               0 
         19.945               2 
          19.95               0 
         19.955               1 
          19.96               0 
         19.965               1 
          19.97               0 
         19.975               0 
          19.98               0 
         19.985               0 
          19.99               0 
         19.995               0 
             20               1 
         20.005               0 
          20.01               0 
         20.015               0 
          20.02               0 
         20.025               0 
          20.03               0 
         20.035               3 
          20.04               0 
         20.045               0 
          20.05               0 
         20.055               0 
          20.06               1 
         20.065               0 
          20.07               0 
         20.075               1 
          20.08               0 
         20.085               1 
          20.09               0 
         20.095               0 
           20.1               1 
         20.105               0 
          20.11               0 
         20.115               1 
          20.12               0 
         20.125               0 
          20.13               0 
         20.135               0 
          20.14               0 
         20.145               0 
          20.15               0 
         20.155               0 
          20.16               1 
         20.165               0 
          20.17               0 
         20.175               1 
          20.18               0 
         20.185               0 
          20.19               1 
         20.195               0 
           20.2               1 
         20.205               0 
          20.21               1 
         20.215               1 
          20.22               0 
         20.225               0 
          20.23               0 
         20.235               1 
          20.24               0 
         20.245               0 
          20.25               0 
         20.255               0 
          20.26               0 
         20.265               0 
          20.27               1 
         20.275               1 
          20.28               1 
         20.285               2 
          20.29               0 
         20.295               0 
           20.3               0 
         20.305               1 
          20.31               0 
         20.315               1 
          20.32               0 
         20.325               0 
          20.33               0 
         20.335               0 
          20.34               1 
         20.345               0 
          20.35               0 
         20.355               0 
          20.36               0 
         20.365               0 
          20.37               1 
         20.375               0 
          20.38               0 
         20.385               0 
          20.39               1 
         20.395               0 
